File: RockPy/Tools/data/XRD/pyrrhotite_4C_powell(2004)_298K_peaklist
Peak list for sample No diffraction data present
2theta;Peak height;FWHM;99-900-0004
17.82;;;156.9
17.86;;;78.5
17.87;;;48.3
17.91;;;24.1
18.04;;;85.6
18.08;;;42.8
19.41;;;13.0
19.46;;;6.5
19.57;;;152.6
19.61;;;76.3
21.93;;;138.5
21.98;;;69.3
22.03;;;11.9
22.08;;;6.0
28.52;;;10.8
28.58;;;5.4
28.65;;;77.0
28.71;;;38.5
30.13;;;7.7
30.20;;;3.9
30.44;;;10.8
30.50;;;5.4
30.51;;;38.8
30.58;;;19.4
31.51;;;52.4
31.58;;;26.2
32.25;;;55.4
32.33;;;27.7
32.54;;;18.3
32.61;;;9.2
33.04;;;28.3
33.11;;;14.2
33.25;;;19.8
33.32;;;9.9
34.92;;;405.9
35.00;;;202.9
34.93;;;804.2
35.01;;;402.1
35.34;;;0.3
35.42;;;0.1
36.10;;;1.8
36.18;;;0.9
36.19;;;4.2
36.27;;;2.1
36.37;;;20.3
36.46;;;10.2
36.52;;;43.9
36.61;;;21.9
36.55;;;107.9
36.63;;;54.0
37.84;;;18.4
37.92;;;9.2
38.15;;;22.9
38.23;;;11.4
39.42;;;123.7
39.50;;;61.9
39.51;;;623.1
39.60;;;311.6
39.67;;;243.1
39.76;;;121.5
39.73;;;312.0
39.83;;;156.0
41.04;;;63.9
41.14;;;31.9
44.22;;;38.5
44.32;;;19.3
44.60;;;19.5
44.70;;;9.8
44.72;;;0.5
44.82;;;0.3
44.94;;;0.5
45.04;;;0.3
45.00;;;10.4
45.11;;;5.2
45.17;;;1.6
45.27;;;0.8
46.78;;;3.7
46.89;;;1.9
46.97;;;9.0
47.08;;;4.5
47.02;;;0.1
47.13;;;0.1
47.04;;;23.7
47.15;;;11.8
47.06;;;4.0
47.17;;;2.0
47.67;;;1.3
47.78;;;0.7
47.81;;;57.5
47.92;;;28.8
48.07;;;2.6
48.18;;;1.3
48.78;;;43.1
48.90;;;21.6
48.90;;;1.4
49.02;;;0.7
48.95;;;32.9
49.07;;;16.4
49.04;;;1.7
49.15;;;0.8
49.46;;;0.9
49.58;;;0.5
49.80;;;14.8
49.91;;;7.4
50.40;;;0.0
50.52;;;0.0
50.66;;;0.3
50.78;;;0.1
51.18;;;496.6
51.30;;;248.3
51.32;;;931.2
51.44;;;465.6
51.58;;;1000.0
51.70;;;500.0
51.70;;;472.0
51.82;;;236.0
51.75;;;1.0
51.88;;;0.5
52.19;;;0.2
52.31;;;0.1
52.35;;;1.9
52.47;;;0.9
52.53;;;36.2
52.65;;;18.1
52.61;;;1.9
52.73;;;0.9
52.75;;;43.5
52.87;;;21.8
53.71;;;18.8
53.83;;;9.4
53.75;;;1.2
53.88;;;0.6
54.24;;;13.6
54.37;;;6.8
54.27;;;2.0
54.40;;;1.0
54.42;;;0.6
54.54;;;0.3
54.46;;;28.7
54.59;;;14.3
54.77;;;55.5
54.90;;;27.8
55.14;;;0.0
55.27;;;0.0
55.39;;;29.9
55.52;;;14.9
55.53;;;7.8
55.66;;;3.9
56.11;;;0.2
56.25;;;0.1
56.12;;;6.0
56.25;;;3.0
57.44;;;6.9
57.58;;;3.5
57.66;;;13.6
57.80;;;6.8
57.77;;;2.2
57.91;;;1.1
57.97;;;6.7
58.10;;;3.4
58.70;;;7.2
58.84;;;3.6
58.93;;;30.5
59.07;;;15.3
59.02;;;1.7
59.16;;;0.8
59.31;;;1.7
59.46;;;0.8
60.21;;;4.8
60.36;;;2.4
60.55;;;1.5
60.69;;;0.8
60.70;;;2.7
60.84;;;1.4
60.77;;;32.3
60.92;;;16.1
61.01;;;1.8
61.16;;;0.9
61.30;;;0.0
61.44;;;0.0
62.63;;;729.0
62.78;;;364.5
62.65;;;360.6
62.80;;;180.3
63.33;;;0.4
63.49;;;0.2
63.44;;;2.6
63.59;;;1.3
63.49;;;6.1
63.64;;;3.0
63.50;;;1.0
63.66;;;0.5
63.79;;;19.0
63.94;;;9.5
63.83;;;2.7
63.99;;;1.4
64.08;;;0.2
64.24;;;0.1
64.10;;;0.0
64.26;;;0.0
64.23;;;7.7
64.39;;;3.9
64.27;;;17.9
64.42;;;8.9
64.47;;;0.4
64.63;;;0.2
65.02;;;0.0
65.18;;;0.0
65.52;;;3.9
65.68;;;1.9
65.59;;;1.2
65.75;;;0.6
65.64;;;0.0
65.80;;;0.0
65.66;;;0.1
65.83;;;0.1
65.73;;;2.0
65.73;;;4.8
65.89;;;1.0
65.89;;;2.4
65.78;;;0.9
65.94;;;0.5
65.93;;;1.4
66.09;;;0.7
66.26;;;1.6
66.42;;;0.8
66.32;;;10.1
66.48;;;5.0
67.08;;;10.2
67.24;;;5.1
67.13;;;2.6
67.30;;;1.3
67.34;;;6.1
67.51;;;3.0
67.37;;;1.2
67.53;;;0.6
67.49;;;44.4
67.66;;;22.2
67.55;;;0.0
67.71;;;0.0
67.67;;;44.4
67.83;;;22.2
68.00;;;88.7
68.16;;;44.4
68.10;;;8.0
68.26;;;4.0
68.15;;;20.8
68.32;;;10.4
68.52;;;0.1
68.69;;;0.1
68.63;;;0.0
68.80;;;0.0
69.16;;;19.5
69.33;;;9.8
69.32;;;0.1
69.49;;;0.1
69.52;;;2.5
69.69;;;1.3
69.54;;;3.3
69.71;;;1.6
69.59;;;0.2
69.76;;;0.1
69.59;;;2.7
69.76;;;1.4
69.81;;;0.0
69.98;;;0.0
69.96;;;1.0
70.13;;;0.5
70.01;;;1.8
70.18;;;0.9
70.05;;;3.2
70.22;;;1.6
70.09;;;5.4
70.26;;;2.7
70.43;;;2.1
70.60;;;1.1
70.48;;;9.1
70.66;;;4.5
71.39;;;4.5
71.57;;;2.3
71.70;;;0.0
71.88;;;0.0
71.84;;;3.0
72.02;;;1.5
72.12;;;0.0
72.31;;;0.0
72.24;;;8.6
72.42;;;4.3
72.40;;;3.5
72.58;;;1.8
72.89;;;4.9
73.07;;;2.5
73.68;;;4.9
73.87;;;2.5
73.75;;;29.4
73.94;;;14.7
73.78;;;57.2
73.96;;;28.6
74.35;;;2.3
74.54;;;1.1
74.43;;;12.4
74.62;;;6.2
74.46;;;0.9
74.65;;;0.5
74.46;;;4.5
74.65;;;2.3
74.56;;;1.2
74.75;;;0.6
74.62;;;11.1
74.81;;;5.5
74.77;;;13.5
74.96;;;6.8
74.78;;;4.3
74.97;;;2.1
74.82;;;9.4
75.01;;;4.7
74.92;;;0.0
75.11;;;0.0
75.00;;;0.6
75.19;;;0.3
75.06;;;15.8
75.26;;;7.9
75.66;;;0.0
75.86;;;0.0
76.29;;;0.0
76.49;;;0.0
76.46;;;30.1
76.65;;;15.1
76.59;;;36.8
76.78;;;18.4
76.80;;;58.2
76.99;;;29.1
76.87;;;16.9
77.07;;;8.4
76.91;;;8.4
77.11;;;4.2
77.25;;;0.0
77.45;;;0.0
77.32;;;2.4
77.52;;;1.2
77.34;;;1.6
77.54;;;0.8
77.53;;;2.5
77.73;;;1.3
77.62;;;0.0
77.82;;;0.0
77.68;;;186.1
77.88;;;93.0
79.72;;;3.3
79.92;;;1.6
80.04;;;0.0
80.25;;;0.0
80.05;;;0.0
80.26;;;0.0
80.13;;;0.7
80.34;;;0.3
80.17;;;0.2
80.38;;;0.1
80.30;;;1.7
80.51;;;0.8
80.40;;;4.3
80.61;;;2.1
80.44;;;0.0
80.65;;;0.0
80.57;;;0.0
80.78;;;0.0
80.75;;;2.1
80.96;;;1.1
80.84;;;0.3
81.06;;;0.1
80.86;;;0.5
81.07;;;0.3
80.89;;;6.0
81.10;;;3.0
81.25;;;1.7
81.46;;;0.8
81.62;;;0.6
81.83;;;0.3
81.68;;;0.7
81.90;;;0.3
81.82;;;3.6
82.04;;;1.8
81.89;;;7.5
82.10;;;3.8
81.90;;;0.0
82.12;;;0.0
81.91;;;0.3
82.13;;;0.1
82.29;;;3.2
82.51;;;1.6
82.50;;;18.6
82.71;;;9.3
83.15;;;11.1
83.37;;;5.5
83.29;;;8.9
83.52;;;4.5
83.33;;;3.7
83.56;;;1.9
83.42;;;3.6
83.65;;;1.8
83.72;;;0.0
83.95;;;0.0
83.98;;;6.8
84.20;;;3.4
84.32;;;0.0
84.54;;;0.0
84.72;;;0.0
84.95;;;0.0
84.82;;;76.9
85.05;;;38.5
84.91;;;15.9
85.14;;;8.0
85.05;;;166.6
85.28;;;83.3
85.43;;;2.7
85.66;;;1.4
85.46;;;160.0
85.69;;;80.0
85.52;;;0.4
85.75;;;0.2
85.63;;;4.7
85.86;;;2.4
85.64;;;89.0
85.87;;;44.5
85.89;;;3.5
86.13;;;1.8
85.93;;;10.1
86.16;;;5.0
86.06;;;0.0
86.29;;;0.0
86.11;;;4.4
86.34;;;2.2
86.18;;;8.8
86.41;;;4.4
86.27;;;0.4
86.51;;;0.2
86.34;;;11.6
86.57;;;5.8
86.89;;;2.4
87.12;;;1.2
86.98;;;0.6
87.22;;;0.3
87.05;;;6.0
87.28;;;3.0
87.06;;;0.1
87.29;;;0.1
87.10;;;0.5
87.33;;;0.3
87.10;;;4.3
87.33;;;2.1
87.20;;;0.1
87.44;;;0.1
87.52;;;0.2
87.75;;;0.1
87.67;;;12.0
87.91;;;6.0
87.69;;;17.4
87.93;;;8.7
87.74;;;15.2
87.98;;;7.6
87.90;;;46.4
88.14;;;23.2
87.90;;;3.2
88.14;;;1.6
88.03;;;0.0
88.27;;;0.0
88.28;;;10.0
88.52;;;5.0
88.30;;;39.1
88.55;;;19.6
88.35;;;0.8
88.60;;;0.4
88.43;;;0.5
88.67;;;0.3
88.50;;;25.9
88.74;;;12.9
88.54;;;6.3
88.79;;;3.1
88.55;;;1.0
88.80;;;0.5
88.62;;;0.5
88.86;;;0.3
89.03;;;1.0
89.28;;;0.5
89.47;;;1.3
89.72;;;0.7
89.55;;;0.0
89.80;;;0.0
89.86;;;0.1
90.11;;;0.1
89.89;;;5.7
90.14;;;2.9
89.90;;;4.7
90.15;;;2.4
90.03;;;1.2
90.28;;;0.6
90.29;;;9.2
90.54;;;4.6
90.33;;;0.2
90.58;;;0.1
90.42;;;6.1
90.67;;;3.0
90.48;;;2.7
90.73;;;1.4
90.66;;;3.5
90.91;;;1.8
90.85;;;6.6
91.11;;;3.3
90.96;;;0.1
91.21;;;0.1
90.98;;;0.5
91.23;;;0.3
91.00;;;0.5
91.26;;;0.3
91.21;;;7.0
91.46;;;3.5
91.35;;;1.0
91.60;;;0.5
91.40;;;0.8
91.66;;;0.4
91.46;;;0.0
91.71;;;0.0
91.55;;;11.1
91.81;;;5.5
91.65;;;1.5
91.91;;;0.8
91.76;;;0.0
92.02;;;0.0
91.86;;;2.3
92.11;;;1.1
92.10;;;0.0
92.36;;;0.0
92.56;;;0.2
92.82;;;0.1
92.57;;;0.5
92.83;;;0.3
93.00;;;16.2
93.26;;;8.1
93.39;;;0.6
93.65;;;0.3
93.46;;;0.0
93.72;;;0.0
95.10;;;2.5
95.37;;;1.3
95.27;;;1.4
95.54;;;0.7
95.40;;;5.9
95.68;;;3.0
95.42;;;0.0
95.69;;;0.0
95.44;;;0.2
95.71;;;0.1
95.59;;;2.6
95.86;;;1.3
95.60;;;6.0
95.87;;;3.0
95.67;;;0.2
95.95;;;0.1
95.84;;;3.0
96.12;;;1.5
95.90;;;1.7
96.18;;;0.8
95.96;;;5.4
96.24;;;2.7
96.07;;;0.0
96.35;;;0.0
96.26;;;0.3
96.54;;;0.1
96.39;;;0.0
96.67;;;0.0
96.43;;;0.0
96.71;;;0.0
96.58;;;8.0
96.86;;;4.0