File: RockPy/Tools/data/XRD/pyrrhotite_5C_elliot(2010)_298K_peaklist
Peak list for sample No diffraction data present
2theta;Peak height;FWHM;99-900-0006
7.16;;;32.0
7.17;;;16.0
14.34;;;7.2
14.37;;;3.6
17.60;;;85.3
17.63;;;42.6
17.61;;;44.9
17.65;;;22.4
18.71;;;73.7
18.75;;;36.9
20.34;;;3.3
20.39;;;1.6
20.36;;;31.7
20.40;;;15.8
21.58;;;2.7
21.63;;;1.4
22.51;;;2.6
22.56;;;1.3
27.77;;;1.5
27.83;;;0.8
28.91;;;1.2
28.97;;;0.6
30.33;;;11.2
30.39;;;5.6
30.35;;;21.2
30.42;;;10.6
30.71;;;1.1
30.78;;;0.6
30.72;;;10.8
30.79;;;5.4
30.94;;;20.1
31.00;;;10.1
32.05;;;9.6
32.12;;;4.8
32.07;;;1.0
32.15;;;0.5
33.45;;;0.9
33.52;;;0.5
33.87;;;15.5
33.94;;;7.8
34.85;;;445.3
34.93;;;222.7
34.88;;;444.1
34.96;;;222.1
34.94;;;442.1
35.02;;;221.1
35.62;;;1.4
35.70;;;0.7
35.66;;;1.4
35.74;;;0.7
35.71;;;1.4
35.79;;;0.7
36.36;;;105.6
36.44;;;52.8
37.11;;;11.8
37.20;;;5.9
37.12;;;6.2
37.20;;;3.1
37.30;;;0.6
37.39;;;0.3
37.86;;;1.1
37.95;;;0.6
37.89;;;1.1
37.98;;;0.6
37.94;;;1.1
38.03;;;0.6
39.47;;;423.8
39.56;;;211.9
39.50;;;422.8
39.59;;;211.4
39.55;;;421.1
39.64;;;210.6
39.67;;;5.1
39.76;;;2.5
39.69;;;0.5
39.78;;;0.3
41.36;;;0.8
41.46;;;0.4
41.39;;;0.8
41.48;;;0.4
41.44;;;0.8
41.53;;;0.4
42.19;;;7.9
42.29;;;4.0
43.98;;;0.3
44.08;;;0.1
43.98;;;6.9
44.08;;;3.5
43.99;;;3.6
44.09;;;1.8
44.98;;;3.4
45.08;;;1.7
45.00;;;6.4
45.10;;;3.2
45.89;;;0.6
46.00;;;0.3
45.92;;;0.6
46.02;;;0.3
45.96;;;0.6
46.07;;;0.3
46.81;;;3.0
46.92;;;1.5
46.83;;;5.6
46.94;;;2.8
46.92;;;5.6
47.03;;;2.8
46.95;;;2.9
47.06;;;1.4
47.33;;;5.4
47.43;;;2.7
47.38;;;5.4
47.49;;;2.7
47.58;;;5.3
47.69;;;2.6
48.03;;;2.7
48.14;;;1.4
48.05;;;0.2
48.16;;;0.1
48.13;;;0.2
48.24;;;0.1
48.16;;;2.7
48.27;;;1.4
49.12;;;0.2
49.23;;;0.1
49.17;;;0.2
49.28;;;0.1
50.98;;;2.2
51.10;;;1.1
51.00;;;4.2
51.12;;;2.1
51.24;;;0.2
51.36;;;0.1
51.24;;;2.2
51.36;;;1.1
51.25;;;1000.0
51.37;;;500.0
51.27;;;998.4
51.39;;;499.2
51.31;;;995.6
51.43;;;497.8
51.80;;;0.2
51.92;;;0.1
52.01;;;0.2
52.13;;;0.1
52.06;;;0.2
52.18;;;0.1
53.52;;;3.5
53.65;;;1.8
53.58;;;1.8
53.70;;;0.9
53.78;;;1.8
53.91;;;0.9
53.80;;;0.1
53.92;;;0.1
53.87;;;0.1
54.00;;;0.1
53.90;;;1.8
54.03;;;0.9
54.08;;;3.4
54.21;;;1.7
54.19;;;3.4
54.31;;;1.7
54.63;;;0.1
54.75;;;0.1
54.68;;;1.7
54.81;;;0.8
55.02;;;0.1
55.15;;;0.1
55.71;;;0.1
55.85;;;0.1
55.87;;;3.0
56.01;;;1.5
55.92;;;3.0
56.05;;;1.5
57.30;;;0.2
57.44;;;0.1
57.32;;;0.2
57.46;;;0.1
57.36;;;0.2
57.49;;;0.1
57.58;;;1.4
57.72;;;0.7
57.60;;;0.1
57.74;;;0.1
58.09;;;1.4
58.23;;;0.7
58.11;;;2.6
58.24;;;1.3
58.18;;;2.6
58.32;;;1.3
58.21;;;1.3
58.35;;;0.7
58.37;;;0.1
58.51;;;0.1
59.90;;;0.1
60.04;;;0.1
59.93;;;0.1
60.08;;;0.1
59.98;;;1.2
60.12;;;0.6
61.06;;;0.1
61.21;;;0.1
61.98;;;2.1
62.12;;;1.1
62.47;;;384.4
62.63;;;192.2
62.58;;;382.0
62.73;;;191.0
62.64;;;380.7
62.80;;;190.3
62.84;;;0.1
62.99;;;0.1
62.98;;;0.2
63.13;;;0.1
63.08;;;0.2
63.24;;;0.1
63.15;;;0.2
63.30;;;0.1
63.21;;;1.0
63.36;;;0.5
63.23;;;1.9
63.38;;;0.9
63.30;;;1.9
63.45;;;0.9
63.32;;;1.0
63.48;;;0.5
63.96;;;0.1
64.12;;;0.1
63.98;;;1.8
64.13;;;0.9
63.98;;;0.1
64.14;;;0.1
64.01;;;0.1
64.17;;;0.1
64.02;;;0.9
64.18;;;0.5
64.47;;;0.1
64.63;;;0.1
64.57;;;0.1
64.73;;;0.1
64.64;;;0.1
64.79;;;0.1
65.51;;;0.9
65.67;;;0.5
65.59;;;1.6
65.75;;;0.8
65.62;;;0.8
65.78;;;0.4
65.66;;;1.6
65.82;;;0.8
65.82;;;1.6
65.98;;;0.8
65.86;;;1.6
66.02;;;0.8
66.09;;;1.6
66.26;;;0.8
66.13;;;1.6
66.30;;;0.8
66.49;;;0.8
66.65;;;0.4
66.57;;;0.0
66.73;;;0.0
66.60;;;0.8
66.76;;;0.4
66.63;;;0.0
66.80;;;0.0
66.89;;;0.0
67.06;;;0.0
66.90;;;0.8
67.06;;;0.4
66.92;;;0.1
67.08;;;0.1
67.02;;;0.1
67.19;;;0.1
67.08;;;0.1
67.25;;;0.1
67.28;;;0.0
67.44;;;0.0
67.32;;;0.0
67.49;;;0.0
67.51;;;70.7
67.68;;;35.4
67.53;;;70.6
67.70;;;35.3
67.56;;;70.5
67.73;;;35.3
68.34;;;0.0
68.51;;;0.0
68.46;;;0.0
68.63;;;0.0
68.85;;;1.4
69.02;;;0.7
68.89;;;0.7
69.06;;;0.3
69.07;;;0.7
69.24;;;0.3
69.08;;;0.0
69.26;;;0.0
69.15;;;0.0
69.32;;;0.0
69.18;;;0.7
69.35;;;0.3
69.68;;;0.0
69.85;;;0.0
69.72;;;0.0
69.89;;;0.0
70.27;;;0.1
70.45;;;0.1
70.37;;;0.1
70.55;;;0.1
70.43;;;0.1
70.61;;;0.1
71.09;;;1.2
71.27;;;0.6
71.21;;;0.1
71.38;;;0.1
71.22;;;0.1
71.40;;;0.1
71.26;;;0.1
71.44;;;0.1
71.28;;;0.6
71.45;;;0.3
71.35;;;0.0
71.53;;;0.0
71.38;;;0.6
71.56;;;0.3
71.41;;;0.0
71.59;;;0.0
71.69;;;1.2
71.87;;;0.6
72.30;;;0.0
72.48;;;0.0
72.34;;;0.0
72.52;;;0.0
72.40;;;0.6
72.58;;;0.3
72.41;;;0.0
72.59;;;0.0
72.98;;;1.1
73.16;;;0.6
73.01;;;1.1
73.20;;;0.6
73.59;;;32.3
73.77;;;16.1
73.67;;;32.1
73.85;;;16.1
73.80;;;31.9
73.98;;;15.9
74.05;;;0.1
74.24;;;0.1
74.13;;;0.1
74.32;;;0.1
74.26;;;0.1
74.45;;;0.1
74.49;;;13.4
74.68;;;6.7
74.49;;;0.0
74.68;;;0.0
74.53;;;0.5
74.72;;;0.3
74.59;;;13.3
74.78;;;6.7
74.64;;;13.3
74.83;;;6.7
75.01;;;0.5
75.20;;;0.3
75.08;;;1.0
75.27;;;0.5
75.11;;;0.5
75.30;;;0.3
75.14;;;1.0
75.33;;;0.5
75.39;;;1.0
75.58;;;0.5
75.39;;;0.5
75.59;;;0.3
75.44;;;0.1
75.63;;;0.1
75.52;;;0.1
75.71;;;0.1
75.65;;;0.1
75.84;;;0.1
76.43;;;0.9
76.62;;;0.5
76.48;;;48.3
76.67;;;24.1
76.55;;;48.2
76.75;;;24.1
76.68;;;47.9
76.88;;;23.9
77.22;;;183.7
77.42;;;91.8
77.71;;;0.0
77.91;;;0.0
77.73;;;0.0
77.94;;;0.0
77.81;;;0.0
78.01;;;0.0
77.94;;;0.0
78.14;;;0.0
79.06;;;0.0
79.27;;;0.0
79.08;;;0.0
79.28;;;0.0
79.11;;;0.0
79.32;;;0.0
79.21;;;0.0
79.42;;;0.0
79.25;;;0.0
79.46;;;0.0
79.53;;;0.0
79.74;;;0.0
79.58;;;0.4
79.79;;;0.2
79.62;;;0.0
79.83;;;0.0
79.65;;;0.8
79.86;;;0.4
79.68;;;0.0
79.89;;;0.0
79.68;;;0.4
79.89;;;0.2
79.72;;;0.8
79.92;;;0.4
80.66;;;0.4
80.88;;;0.2
80.68;;;0.7
80.89;;;0.3
80.91;;;0.0
81.13;;;0.0
80.99;;;0.0
81.20;;;0.0
81.12;;;0.0
81.33;;;0.0
81.57;;;0.7
81.79;;;0.3
81.59;;;0.4
81.81;;;0.2
81.70;;;0.7
81.91;;;0.3
81.80;;;0.3
82.01;;;0.1
82.10;;;0.7
82.32;;;0.3
82.12;;;0.7
82.34;;;0.3
82.16;;;0.7
82.38;;;0.3
82.17;;;0.7
82.39;;;0.3
82.47;;;0.0
82.69;;;0.0
82.50;;;0.3
82.71;;;0.1
82.60;;;0.0
82.82;;;0.0
82.70;;;0.3
82.92;;;0.1
82.90;;;0.3
83.12;;;0.1
82.91;;;0.0
83.13;;;0.0
82.98;;;0.0
83.20;;;0.0