File: RockPy/tools/data/XRD/pyrrhotite_6C_DeVilliers(2010)_298K_peaklist
Peak list for sample No diffraction data present
2theta;Peak height;FWHM;99-900-0009
11.90;;;2.2
11.92;;;1.1
17.21;;;0.0
17.25;;;0.0
17.48;;;0.6
17.52;;;0.3
17.48;;;1.0
17.52;;;0.5
18.23;;;1.6
18.27;;;0.8
19.42;;;8.5
19.47;;;4.3
19.43;;;0.7
19.47;;;0.3
20.98;;;12.0
21.02;;;6.0
22.84;;;5.5
22.89;;;2.8
22.84;;;9.9
22.89;;;5.0
23.93;;;0.4
23.98;;;0.2
24.92;;;0.3
24.98;;;0.1
27.21;;;1.8
27.27;;;0.9
27.21;;;5.6
27.27;;;2.8
29.63;;;2.5
29.69;;;1.3
30.21;;;0.2
30.27;;;0.1
30.21;;;0.4
30.27;;;0.2
30.67;;;0.0
30.74;;;0.0
30.68;;;0.0
30.74;;;0.0
31.41;;;0.0
31.48;;;0.0
31.41;;;0.0
31.48;;;0.0
32.18;;;1.2
32.25;;;0.6
32.18;;;0.0
32.25;;;0.0
33.69;;;0.0
33.77;;;0.0
33.70;;;0.3
33.77;;;0.1
34.82;;;0.8
34.90;;;0.4
34.83;;;500.4
34.91;;;250.2
34.85;;;1000.0
34.93;;;500.0
35.20;;;0.0
35.28;;;0.0
35.21;;;0.0
35.28;;;0.0
35.37;;;0.1
35.45;;;0.1
35.38;;;0.0
35.46;;;0.0
35.39;;;0.1
35.46;;;0.1
36.23;;;165.4
36.31;;;82.7
36.89;;;0.4
36.97;;;0.2
36.89;;;0.2
36.98;;;0.1
36.93;;;0.5
37.02;;;0.3
36.95;;;0.5
37.03;;;0.3
36.95;;;0.3
37.03;;;0.1
37.56;;;0.2
37.65;;;0.1
37.56;;;0.6
37.65;;;0.3
39.42;;;345.6
39.51;;;172.8
39.44;;;346.2
39.53;;;173.1
39.44;;;344.0
39.53;;;172.0
40.37;;;0.0
40.47;;;0.0
40.82;;;1.1
40.91;;;0.6
40.82;;;1.4
40.91;;;0.7
42.70;;;0.0
42.80;;;0.0
42.72;;;0.0
42.81;;;0.0
42.72;;;0.2
42.82;;;0.1
43.01;;;2.2
43.11;;;1.1
43.02;;;2.1
43.12;;;1.1
43.26;;;0.2
43.36;;;0.1
43.26;;;0.3
43.36;;;0.1
45.32;;;1.8
45.43;;;0.9
45.33;;;1.9
45.43;;;0.9
46.21;;;1.2
46.32;;;0.6
46.64;;;0.0
46.75;;;0.0
46.66;;;0.0
46.76;;;0.0
46.66;;;0.0
46.77;;;0.0
46.66;;;0.0
46.77;;;0.0
46.76;;;0.6
46.87;;;0.3
46.79;;;0.1
46.89;;;0.1
46.79;;;0.2
46.90;;;0.1
47.09;;;0.4
47.19;;;0.2
47.09;;;0.1
47.20;;;0.1
47.60;;;2.5
47.71;;;1.3
47.60;;;0.7
47.71;;;0.3
47.63;;;2.8
47.74;;;1.4
47.63;;;0.8
47.74;;;0.4
48.33;;;8.3
48.45;;;4.2
48.34;;;8.3
48.45;;;4.2
48.99;;;0.4
49.10;;;0.2
49.23;;;3.8
49.34;;;1.9
49.23;;;0.0
49.35;;;0.0
49.25;;;6.3
49.36;;;3.1
49.25;;;7.6
49.36;;;3.8
49.27;;;6.3
49.38;;;3.1
49.27;;;7.5
49.39;;;3.8
50.31;;;3.9
50.43;;;1.9
50.31;;;3.7
50.43;;;1.9
50.36;;;0.0
50.48;;;0.0
50.36;;;0.1
50.48;;;0.1
51.14;;;962.3
51.26;;;481.1
51.15;;;960.4
51.27;;;480.2
51.15;;;959.9
51.27;;;479.9
51.64;;;5.4
51.76;;;2.7
51.64;;;8.3
51.76;;;4.2
51.66;;;5.8
51.78;;;2.9
51.67;;;8.2
51.79;;;4.1
52.31;;;3.9
52.43;;;1.9
52.97;;;2.4
53.09;;;1.2
52.97;;;1.8
53.09;;;0.9
53.11;;;6.8
53.23;;;3.4
53.11;;;6.5
53.23;;;3.3
53.36;;;0.0
53.48;;;0.0
53.48;;;0.2
53.60;;;0.1
53.48;;;0.0
53.60;;;0.0
53.74;;;0.0
53.86;;;0.0
54.24;;;2.5
54.37;;;1.3
54.24;;;0.8
54.37;;;0.4
54.72;;;1.4
54.85;;;0.7
54.72;;;0.2
54.85;;;0.1
54.74;;;1.4
54.87;;;0.7
54.74;;;0.4
54.87;;;0.2
54.88;;;8.6
55.00;;;4.3
55.45;;;1.6
55.58;;;0.8
55.45;;;3.9
55.58;;;1.9
55.71;;;1.0
55.84;;;0.5
55.71;;;0.9
55.84;;;0.5
55.74;;;6.8
55.88;;;3.4
55.74;;;8.1
55.88;;;4.0
56.11;;;0.0
56.24;;;0.0
56.12;;;0.0
56.25;;;0.0
56.12;;;0.0
56.25;;;0.0
56.50;;;0.3
56.63;;;0.1
56.50;;;0.2
56.63;;;0.1
56.74;;;0.0
56.87;;;0.0
57.95;;;6.9
58.09;;;3.5
57.95;;;8.6
58.09;;;4.3
58.40;;;0.0
58.54;;;0.0
58.41;;;0.1
58.55;;;0.1
58.43;;;0.0
58.57;;;0.0
58.43;;;0.1
58.57;;;0.1
58.66;;;0.2
58.80;;;0.1
59.28;;;8.1
59.42;;;4.0
60.47;;;0.0
60.61;;;0.0
60.47;;;0.0
60.62;;;0.0
60.81;;;1.9
60.96;;;0.9
60.81;;;0.5
60.96;;;0.3
61.48;;;0.1
61.63;;;0.1
61.48;;;0.1
61.63;;;0.1
61.51;;;0.7
61.66;;;0.3
61.52;;;1.2
61.66;;;0.6
61.52;;;0.3
61.67;;;0.1
61.94;;;1.5
62.09;;;0.8
61.94;;;4.4
62.09;;;2.2
62.43;;;0.1
62.58;;;0.1
62.45;;;1.2
62.60;;;0.6
62.47;;;690.8
62.62;;;345.4
62.50;;;344.1
62.65;;;172.1
62.65;;;0.1
62.80;;;0.1
62.65;;;0.1
62.80;;;0.1
62.67;;;0.0
62.82;;;0.0
62.67;;;0.1
62.82;;;0.1
62.81;;;0.0
62.96;;;0.0
62.81;;;0.2
62.96;;;0.1
63.84;;;0.3
64.00;;;0.1
63.85;;;0.1
64.00;;;0.1
63.88;;;0.3
64.03;;;0.1
63.88;;;0.0
64.03;;;0.0
64.28;;;0.8
64.43;;;0.4
64.28;;;1.2
64.44;;;0.6
64.51;;;0.0
64.66;;;0.0
64.51;;;0.0
64.67;;;0.0
64.97;;;0.3
65.13;;;0.1
64.97;;;0.1
65.13;;;0.1
65.29;;;2.3
65.45;;;1.1
65.36;;;0.0
65.52;;;0.0
65.40;;;0.3
65.40;;;0.2
65.56;;;0.1
65.56;;;0.1
65.42;;;0.2
65.58;;;0.1
65.42;;;0.3
65.58;;;0.1
65.55;;;0.0
65.71;;;0.0
65.55;;;0.0
65.71;;;0.0
65.69;;;0.0
65.85;;;0.0
65.69;;;0.0
65.86;;;0.0
66.08;;;0.1
66.08;;;0.0
66.24;;;0.1
66.24;;;0.0
66.10;;;0.1
66.26;;;0.1
66.10;;;0.1
66.26;;;0.1
66.20;;;0.0
66.37;;;0.0
66.70;;;0.2
66.87;;;0.1
66.70;;;0.3
66.87;;;0.1
67.31;;;53.6
67.48;;;26.8
67.32;;;53.6
67.49;;;26.8
67.32;;;54.2
67.49;;;27.1
67.40;;;0.7
67.57;;;0.3
67.40;;;0.0
67.57;;;0.0
67.41;;;0.2
67.58;;;0.1
67.42;;;0.4
67.58;;;0.2
67.42;;;0.8
67.59;;;0.4
67.43;;;0.0
67.59;;;0.0
67.44;;;0.2
67.60;;;0.1
67.44;;;0.3
67.60;;;0.1
67.62;;;0.1
67.78;;;0.1
67.62;;;0.1
67.78;;;0.1
67.89;;;0.0
68.06;;;0.0
67.89;;;0.0
68.06;;;0.0
67.92;;;0.0
68.09;;;0.0
67.93;;;0.0
68.09;;;0.0
68.31;;;0.9
68.48;;;0.5
68.32;;;1.0
68.49;;;0.5
68.37;;;0.0
68.54;;;0.0
68.37;;;0.0
68.54;;;0.0
68.72;;;1.4
68.89;;;0.7
68.72;;;0.2
68.89;;;0.1
69.40;;;0.4
69.57;;;0.2
69.40;;;0.0
69.57;;;0.0
69.42;;;0.1
69.59;;;0.1
69.42;;;0.4
69.60;;;0.2
69.97;;;0.4
70.14;;;0.2
69.97;;;0.5
70.15;;;0.3
70.51;;;1.5
70.69;;;0.8
70.67;;;0.1
70.84;;;0.1
70.67;;;0.1
70.85;;;0.1
70.85;;;0.0
71.03;;;0.0
70.85;;;0.0
71.03;;;0.0
72.01;;;0.0
72.19;;;0.0
72.01;;;0.2
72.19;;;0.1
72.03;;;0.1
72.21;;;0.1
72.03;;;0.0
72.21;;;0.0
72.23;;;2.5
72.41;;;1.3
72.64;;;0.3
72.83;;;0.1
72.64;;;0.6
72.83;;;0.3
72.66;;;0.2
72.84;;;0.1
72.67;;;0.7
72.85;;;0.3
72.88;;;2.7
73.07;;;1.4
72.89;;;0.0
73.07;;;0.0
73.52;;;0.1
73.71;;;0.1
73.53;;;0.0
73.71;;;0.0
73.53;;;0.4
73.72;;;0.2
73.54;;;33.7
73.73;;;16.9
73.58;;;0.0
73.76;;;0.0
73.58;;;0.0
73.77;;;0.0
73.58;;;66.8
73.77;;;33.4
73.86;;;0.0
74.05;;;0.0
73.90;;;0.0
74.09;;;0.0
73.91;;;0.1
74.09;;;0.1
74.13;;;0.0
74.32;;;0.0
74.14;;;0.1
74.32;;;0.1
74.40;;;20.2
74.59;;;10.1
74.40;;;20.1
74.59;;;10.1
74.43;;;10.0
74.62;;;5.0
74.43;;;9.9
74.62;;;5.0
74.82;;;0.1
75.01;;;0.1
74.86;;;0.2
75.05;;;0.1
74.86;;;0.1
75.06;;;0.1
75.22;;;0.0
75.41;;;0.0
75.22;;;0.0
75.41;;;0.0
75.24;;;0.0
75.43;;;0.0
75.24;;;0.0
75.43;;;0.0
75.34;;;3.2
75.53;;;1.6
75.45;;;0.0
75.64;;;0.0
75.45;;;0.0
75.65;;;0.0
75.83;;;1.2
76.02;;;0.6
75.83;;;1.2
76.02;;;0.6
76.41;;;37.6
76.61;;;18.8
76.45;;;36.9
76.65;;;18.4
76.45;;;38.1
76.65;;;19.1
76.91;;;164.7
77.11;;;82.3
77.08;;;0.0
77.27;;;0.0
77.08;;;0.0
77.28;;;0.0
77.55;;;0.0
77.75;;;0.0
77.56;;;0.0
77.76;;;0.0
77.97;;;1.6
78.17;;;0.8
77.97;;;2.8
78.18;;;1.4
78.37;;;0.0
78.57;;;0.0
78.37;;;0.6
78.57;;;0.3
78.38;;;0.1
78.59;;;0.1
78.39;;;0.6
78.59;;;0.3
78.52;;;0.0
78.72;;;0.0
78.52;;;0.0
78.72;;;0.0
78.62;;;0.0
78.82;;;0.0
78.66;;;0.0
78.86;;;0.0
78.66;;;0.1
78.86;;;0.1
79.01;;;0.2
79.21;;;0.1
79.01;;;0.2
79.21;;;0.1
79.03;;;0.1
79.23;;;0.1
79.03;;;0.2
79.23;;;0.1
79.53;;;0.0
79.74;;;0.0
80.16;;;0.0
80.37;;;0.0
80.17;;;0.0
80.38;;;0.0
80.17;;;0.0
80.38;;;0.0
80.69;;;0.0
80.90;;;0.0
81.07;;;0.0
81.28;;;0.0
81.07;;;0.0
81.29;;;0.0
81.15;;;0.1
81.36;;;0.1
81.16;;;0.0
81.37;;;0.0
81.42;;;0.2
81.64;;;0.1
81.43;;;0.2
81.64;;;0.1
81.43;;;0.0
81.65;;;0.0
81.45;;;0.0
81.66;;;0.0
81.47;;;0.1
81.68;;;0.1
81.47;;;0.0
81.69;;;0.0
81.54;;;0.1
81.75;;;0.1
81.54;;;0.0
81.75;;;0.0
81.58;;;0.0
81.79;;;0.0